Folder: TEdissy_analysis/ft_ir/output_ftir/export_data

Note: README.md
# TEdissy_analysis
Dissertation analysis of proximate nutrient composition carageenan content, morphometrics, and phycoerythrin content of C. Chamissoi samples in Peru In March and April 2025

File: final_combined_ftir_data.csv
"Variable","Lab_02","Lab_03","Lab_08","Lab_09","Lab_10","Lab_11","Lab_12","Lab_13","Lab_16","Lab_17","Lab_19","Lab_20","Lab_21","Lab_22","Lab_45","Lab_65","standard","Lab_01","Lab_04","Lab_05","Lab_06","Lab_07","Lab_14","Lab_15","Lab_18"
"Sample Code","R02","R04","R03","R02","R01","R02","R03","R01","R01","R02","R04","R01","R02","R03","R01","R03","standard",NA,NA,NA,NA,NA,NA,NA,NA
"Location","Mendieta","Mendieta","Concession","Concession","Mendieta","Mendieta","Mendieta","7H","7H","7H","7H","Powder Ilo","Powder Ilo","Powder Ilo","Concession","Mendieta","standard",NA,NA,NA,NA,NA,NA,NA,NA
"region","Paracas","Paracas","Paracas","Paracas","Paracas","Paracas","Paracas","Marcona","Marcona","Marcona","Marcona","Ilo","Ilo","Ilo","Paracas","Paracas","standard",NA,NA,NA,NA,NA,NA,NA,NA
"variety","C.Cham","C.Cham","C.Cham","C.Cham","F. Glom","F. Glom","F. Glom","C.Cham","F. Glom","F. Glom","F. Glom","C.Cham","C.Cham","C.Cham","C.Cham","C.Cham","standard",NA,NA,NA,NA,NA,NA,NA,NA
"Life_S","Tetra","Carp","Gam","Gam/Tetra","Gam/Tetra","Gam/Tetra","Gam/Tetra","Tetra","Carp","Gam/Tetra","Gam/Tetra","Unknown","Unknown","Unknown","Gam/Tetra","Gam","standard",NA,NA,NA,NA,NA,NA,NA,NA
"Large Ind?","Yes","Yes","Yes","No","No","No","No","Yes","No","No","No","No","No","No","No","No","standard",NA,NA,NA,NA,NA,NA,NA,NA
"4000","0.0059","0.0068","0.0079","0.0076","0.008","0.0075","0.0072","0.0042","0.0076","0.0044","0.0095","0.0115","0.01","0.0054",NA,NA,"0.0132","0.0064","0.0089","0.0094","0.0088","0.0074","0.007","0.0067","0.0082"
"3922","0.0064","0.0074","0.0082","0.0079","0.0081","0.0077","0.0074","0.0045","0.0077","0.0044","0.0097","0.0115","0.0101","0.0055",NA,NA,"0.0127","0.0069","0.0095","0.0097","0.0089","0.0075","0.0072","0.0069","0.0082"
"3844","0.0068","0.0079","0.0085","0.008","0.0085","0.008","0.0076","0.0049","0.0077","0.0045","0.0097","0.0115","0.0101","0.006",NA,NA,"0.0125","0.0072","0.0101","0.0099","0.0088","0.0077","0.0072","0.0067","0.0083"
"3766","0.0073","0.0085","0.0091","0.0088","0.0091","0.0087","0.0083","0.0055","0.0084","0.0052","0.01","0.0118","0.0105","0.0067",NA,NA,"0.0119","0.008","0.0106","0.0105","0.0094","0.0086","0.0079","0.0075","0.0089"
"3688","0.0112","0.0126","0.0137","0.0134","0.0145","0.0143","0.0139","0.0098","0.013","0.0094","0.0135","0.015","0.0145","0.0117",NA,NA,"0.0118","0.0129","0.0155","0.0148","0.0138","0.0139","0.0119","0.0125","0.0135"
"3610","0.0473","0.0512","0.0544","0.0559","0.0582","0.0593","0.0667","0.0457","0.0532","0.045","0.0437","0.0439","0.0502","0.0494",NA,NA,"0.0251","0.0563","0.0602","0.0512","0.0545","0.0573","0.0481","0.0555","0.0543"
"3532","0.09","0.0965","0.1063","0.1081","0.1134","0.1146","0.1315","0.0886","0.1024","0.0878","0.0792","0.0776","0.0921","0.0949",NA,NA,"0.0463","0.1122","0.1126","0.0957","0.1038","0.1171","0.0917","0.1074","0.1032"
"3454","0.1258","0.1348","0.1515","0.1514","0.1643","0.163","0.1852","0.1252","0.1458","0.1265","0.1084","0.1053","0.1249","0.1344",NA,NA,"0.0587","0.1652","0.1573","0.1337","0.1471","0.1728","0.1281","0.1508","0.1447"
"3376","0.1397","0.1493","0.1714","0.1674","0.1849","0.182","0.2042","0.1376","0.1609","0.1403","0.1164","0.1114","0.1327","0.147",NA,NA,"0.0656","0.1936","0.1746","0.1466","0.1644","0.1989","0.1403","0.1673","0.159"
"3298","0.1203","0.1269","0.1484","0.1414","0.156","0.152","0.1708","0.1152","0.135","0.1158","0.0965","0.091","0.1091","0.1208",NA,NA,"0.0603","0.177","0.1479","0.123","0.1404","0.1755","0.1191","0.1414","0.1318"
"3220","0.0949","0.098","0.1154","0.1091","0.1198","0.1144","0.1307","0.0884","0.1044","0.087","0.0735","0.0691","0.0824","0.0907",NA,NA,"0.0521","0.1461","0.1138","0.0954","0.11","0.1421","0.0934","0.107","0.0995"
"3142","0.0589","0.0582","0.0704","0.0655","0.0715","0.0642","0.0752","0.052","0.0637","0.0481","0.0445","0.042","0.0487","0.0514",NA,NA,"0.0387","0.1011","0.0672","0.0585","0.0683","0.0914","0.0582","0.0609","0.0571"
"3064","0.0356","0.0338","0.0414","0.0387","0.042","0.0348","0.0419","0.0297","0.0383","0.0253","0.0272","0.0262","0.0289","0.0284",NA,NA,"0.0289","0.067","0.0388","0.036","0.0417","0.0564","0.0359","0.0334","0.032"
"2986","0.026","0.0245","0.0294","0.0281","0.029","0.0243","0.0292","0.0205","0.0269","0.0161","0.0203","0.0199","0.0214","0.0196",NA,NA,"0.0267","0.0471","0.0285","0.0267","0.03","0.0394","0.0256","0.023","0.0225"
"2908","0.0248","0.0245","0.0319","0.0291","0.0283","0.0256","0.0269","0.0181","0.0255","0.0136","0.0201","0.0188","0.021","0.0184",NA,NA,"0.0292","0.0481","0.0289","0.0261","0.0303","0.0389","0.0226","0.022","0.0214"
"2830","0.0152","0.0147","0.0187","0.0169","0.0174","0.0146","0.0161","0.011","0.0157","0.0084","0.0133","0.0134","0.0133","0.0112",NA,NA,"0.0234","0.0275","0.017","0.0175","0.018","0.0226","0.0143","0.0125","0.0131"
"2752","0.0118","0.0116","0.0143","0.0129","0.0136","0.0113","0.0123","0.0084","0.012","0.0065","0.0109","0.0114","0.0106","0.0085",NA,NA,"0.0209","0.0193","0.0133","0.0146","0.0138","0.0165","0.011","0.0093","0.0103"
"2674","0.0101","0.0101","0.0124","0.0113","0.0118","0.0101","0.0106","0.0073","0.0103","0.0057","0.01","0.0105","0.0093","0.0076",NA,NA,"0.0199","0.0154","0.0117","0.0133","0.012","0.0136","0.0095","0.0081","0.0091"
"2596","0.0089","0.0091","0.0107","0.0098","0.0105","0.009","0.009","0.0063","0.0088","0.0049","0.0088","0.0096","0.008","0.0066",NA,NA,"0.0185","0.0128","0.0104","0.0123","0.0101","0.0113","0.0081","0.0068","0.0077"
"2518","0.0076","0.0079","0.0094","0.0086","0.0095","0.0082","0.008","0.0054","0.0079","0.0045","0.0078","0.0087","0.0073","0.0058",NA,NA,"0.0173","0.011","0.0092","0.0114","0.0091","0.0101","0.0071","0.0059","0.0069"
"2440","0.0075","0.0078","0.0092","0.0085","0.0096","0.0081","0.0077","0.0052","0.0078","0.0045","0.0077","0.0085","0.0066","0.0057",NA,NA,"0.0165","0.0107","0.009","0.0113","0.0091","0.0103","0.0071","0.0057","0.0068"
"2362","0.0072","0.0075","0.0099","0.009","0.0091","0.0078","0.0084","0.0051","0.0083","0.0049","0.008","0.0089","0.0071","0.0053",NA,NA,"0.0158","0.0106","0.0093","0.0112","0.0097","0.0104","0.0073","0.0061","0.0071"
"2284","0.0115","0.0117","0.013","0.0125","0.0135","0.0121","0.0125","0.0092","0.0113","0.008","0.011","0.0115","0.0099","0.0095",NA,NA,"0.0184","0.0144","0.0133","0.0149","0.0128","0.0138","0.0109","0.0096","0.0108"
"2206","0.0098","0.0107","0.0111","0.0107","0.0123","0.0116","0.0113","0.0082","0.0101","0.0075","0.0091","0.0097","0.0082","0.0087",NA,NA,"0.0165","0.0124","0.0118","0.0137","0.0112","0.0122","0.0093","0.0084","0.0095"
"2128","0.0081","0.0094","0.0108","0.0104","0.0124","0.0111","0.0113","0.0067","0.0098","0.0075","0.0076","0.0081","0.0075","0.008",NA,NA,"0.0141","0.0123","0.0114","0.0133","0.0107","0.0125","0.0079","0.0077","0.0085"
"2050","0.0121","0.0129","0.0132","0.0126","0.0147","0.0136","0.0129","0.01","0.0124","0.0106","0.0111","0.012","0.01","0.0113",NA,NA,"0.0156","0.0138","0.0139","0.0158","0.0137","0.014","0.0111","0.0103","0.0118"
"1972","0.0055","0.0068","0.0083","0.0075","0.0099","0.0085","0.0074","0.004","0.007","0.0053","0.0055","0.007","0.0053","0.0051",NA,NA,"0.0122","0.0078","0.0079","0.0111","0.0076","0.0088","0.0055","0.0046","0.0068"
"1894","0.0077","0.0086","0.0097","0.0092","0.0106","0.0096","0.0078","0.0047","0.0084","0.0058","0.0075","0.0081","0.0068","0.0066",NA,NA,"0.0136","0.01","0.0101","0.0124","0.0095","0.0104","0.0075","0.0066","0.0075"
"1816","0.0083","0.0092","0.0107","0.0101","0.0115","0.0105","0.007","0.004","0.0091","0.0065","0.0079","0.0085","0.0075","0.0074",NA,NA,"0.0134","0.0112","0.011","0.0129","0.0102","0.0119","0.0082","0.0075","0.0083"
"1738","0.0163","0.0171","0.0202","0.0199","0.0208","0.0193","0.0109","0.0064","0.0174","0.0124","0.014","0.0137","0.0141","0.014",NA,NA,"0.0146","0.0269","0.0195","0.0196","0.0195","0.0228","0.0149","0.0152","0.0152"
"1660","0.0728","0.074","0.0796","0.0825","0.0863","0.0857","0.0823","0.0584","0.0804","0.0659","0.0582","0.0549","0.068","0.07",NA,NA,"0.0374","0.099","0.0857","0.0701","0.0783","0.092","0.0699","0.0854","0.0746"
"1582","0.0419","0.0398","0.0448","0.0474","0.0502","0.0488","0.0364","0.0233","0.0479","0.036","0.0332","0.0302","0.0362","0.0383",NA,NA,"0.0275","0.0594","0.0462","0.0396","0.0447","0.0543","0.0388","0.0472","0.0389"
"1504","0.0267","0.0259","0.0285","0.0288","0.0307","0.0302","0.0077","0.0047","0.0295","0.0222","0.0223","0.021","0.0263","0.0258",NA,NA,"0.0185","0.0414","0.0297","0.0273","0.0279","0.0329","0.0249","0.0323","0.0246"
"1426","0.0354","0.0358","0.044","0.0409","0.0409","0.0446","0.0159","0.0093","0.0384","0.0288","0.0305","0.0284","0.0422","0.0379",NA,NA,"0.0301","0.0561","0.041","0.0353","0.0373","0.046","0.0341","0.0453","0.0346"
"1348","0.0382","0.0399","0.0473","0.0448","0.043","0.0471","0.0156","0.0077","0.0391","0.0308","0.0325","0.0299","0.0394","0.0377",NA,NA,"0.0342","0.049","0.046","0.0386","0.0403","0.0474","0.0376","0.0454","0.0384"
"1270","0.0796","0.0871","0.0905","0.1006","0.0814","0.1037","0.0909","0.0416","0.0761","0.0589","0.069","0.0635","0.0939","0.0774",NA,NA,"0.0767","0.0681","0.1053","0.0774","0.0815","0.0649","0.081","0.1061","0.0888"
"1192","0.0919","0.0889","0.1003","0.1004","0.0908","0.0889","0.0591","0.0328","0.0914","0.0551","0.0656","0.0609","0.0843","0.0734",NA,NA,"0.0975","0.1246","0.1029","0.0809","0.0951","0.1107","0.0875","0.0965","0.0829"
"1114","0.1319","0.1169","0.1642","0.1462","0.1466","0.098","0.069","0.0491","0.1396","0.0697","0.0882","0.0814","0.1066","0.0928",NA,NA,"0.1005","0.2919","0.1298","0.1164","0.1522","0.2362","0.1367","0.0995","0.1039"
"1036","0.2004","0.2","0.2425","0.2253","0.1974","0.2047","0.1767","0.1045","0.1843","0.1085","0.1428","0.1258","0.1905","0.1568",NA,NA,"0.2269","0.3221","0.241","0.166","0.2018","0.2383","0.1843","0.2082","0.183"
"958","0.0793","0.0721","0.0909","0.0856","0.0835","0.0829","0.0122","0.0042","0.0805","0.0489","0.0573","0.0491","0.0657","0.0632",NA,NA,"0.0793","0.1356","0.0824","0.0646","0.079","0.1054","0.0688","0.0771","0.0668"
"880","0.1111","0.1039","0.1189","0.112","0.1093","0.0972","0.012","0.0124","0.1047","0.0637","0.0712","0.0651","0.0876","0.0833",NA,NA,"0.0952","0.178","0.1192","0.0919","0.1148","0.142","0.101","0.0952","0.0903"
"802","0.1082","0.1093","0.124","0.1233","0.1206","0.1229","0.0129","0.0105","0.1105","0.0818","0.0822","0.0753","0.099","0.0972",NA,NA,"0.0785","0.1502","0.1283","0.0978","0.1132","0.134","0.1037","0.1208","0.1061"
"724","0.1574","0.1621","0.1816","0.18","0.1764","0.1807","0.026","0.0259","0.1619","0.1206","0.1212","0.1113","0.1495","0.1426",NA,NA,"0.1193","0.2096","0.1925","0.1452","0.1689","0.1929","0.152","0.1804","0.1584"
"646","0.1661","0.173","0.2039","0.1957","0.2006","0.2077","0.0071","0.0057","0.1801","0.1415","0.1348","0.1229","0.1621","0.1605",NA,NA,"0.1316","0.2412","0.2067","0.1598","0.1831","0.2172","0.1659","0.2041","0.1747"
"568","0.2531","0.2553","0.3143","0.2941","0.3029","0.2905","0.0729","0.0365","0.2749","0.1935","0.1974","0.1778","0.2405","0.2291",NA,NA,"0.1908","0.4184","0.3047","0.2334","0.2791","0.346","0.2493","0.2851","0.2544"
"490","0.2651","0.2706","0.3276","0.3071","0.3219","0.3112","0.0242","0.0138","0.2851","0.2143","0.2018","0.1844","0.2468","0.2411",NA,NA,"0.2013","0.4381","0.3282","0.2427","0.2931","0.3602","0.263","0.3015","0.2703"
"450","0.2713","0.2768","0.3334","0.3156","0.3303","0.3412","0.0044","0.0051","0.2915","0.2243","0.208","0.1894","0.256","0.2539",NA,NA,"0.2127","0.4233","0.3438","0.2517","0.2984","0.3541","0.27","0.3257","0.2808"