Folder: TEdissy_analysis/ft_ir/carageenan/output_ftir/export_data

Note: README.md
# TEdissy_analysis
Dissertation analysis of proximate nutrient composition carageenan content, morphometrics, and phycoerythrin content of C. Chamissoi samples in Peru In March and April 2025

File: final_combined_ftir_data.csv
Sample,Lab_02,Lab_03,Lab_08,Lab_09,Lab_10,Lab_11,Lab_12,Lab_13,Lab_16,Lab_17,Lab_19,Lab_20,Lab_21,Lab_22,Lab_45,Lab_65,standard
Label,Mendieta,Mendieta,Concession,Concession,Mendieta F,Mendieta F,Mendieta F,7H,7H,7H,7H,Powder Ilo,Powder Ilo,Powder Ilo,Concession,Mendieta,standard
4000,0.0059,0.0068,0.0079,0.0076,0.008,0.0075,0.0072,0.0042,0.0076,0.0044,0.0095,0.0115,0.01,0.0054,NA,NA,0.0132
3959,0.0061,0.007,0.0081,0.0077,0.0082,0.0077,0.0074,0.0045,0.0078,0.0044,0.0096,0.0116,0.01,0.0054,NA,NA,0.013
3918,0.0065,0.0076,0.0082,0.008,0.0082,0.0078,0.0074,0.0047,0.0078,0.0044,0.0097,0.0116,0.0101,0.0057,NA,NA,0.0127
3877,0.0066,0.0076,0.0083,0.008,0.0083,0.0078,0.0074,0.0048,0.0076,0.0044,0.0096,0.0113,0.01,0.0059,NA,NA,0.0127
3836,0.0068,0.0079,0.0084,0.0079,0.0084,0.0081,0.0076,0.0053,0.0075,0.0043,0.0095,0.0113,0.0098,0.0066,NA,NA,0.0127
3795,0.0068,0.0078,0.0086,0.0082,0.0087,0.0082,0.0078,0.005,0.0079,0.0048,0.0096,0.0113,0.0099,0.0063,NA,NA,0.0122
3754,0.0078,0.0092,0.0095,0.0091,0.0095,0.0091,0.0087,0.0063,0.0083,0.0051,0.0104,0.0122,0.0109,0.0075,NA,NA,0.0123
3713,0.0089,0.0102,0.011,0.0106,0.011,0.011,0.0104,0.0074,0.01,0.0067,0.0116,0.0132,0.0122,0.0087,NA,NA,0.0116
3672,0.0152,0.017,0.0179,0.0176,0.0191,0.0188,0.019,0.0139,0.017,0.0131,0.0165,0.018,0.0181,0.016,NA,NA,0.0125
3631,0.0337,0.0366,0.0393,0.0401,0.0421,0.0427,0.0467,0.033,0.0384,0.0323,0.0326,0.0333,0.0367,0.0361,NA,NA,0.0191
3590,0.0589,0.0635,0.0682,0.0702,0.0723,0.0742,0.0841,0.0571,0.0662,0.0562,0.0533,0.0529,0.0618,0.0617,NA,NA,0.0312
3549,0.0814,0.0874,0.0954,0.0977,0.1016,0.1035,0.1185,0.0797,0.0921,0.0789,0.0721,0.0708,0.0839,0.0858,NA,NA,0.0422
3508,0.1019,0.1092,0.1211,0.1226,0.13,0.1306,0.1496,0.1008,0.1167,0.1008,0.0892,0.0873,0.1035,0.1084,NA,NA,0.0503
3467,0.121,0.1294,0.145,0.1455,0.157,0.1562,0.1777,0.1202,0.1398,0.1211,0.1045,0.1018,0.1206,0.1291,NA,NA,0.0568
3426,0.1349,0.1446,0.1637,0.1625,0.1778,0.1757,0.1986,0.1341,0.1564,0.1362,0.1152,0.1113,0.1322,0.1441,NA,NA,0.0627
3385,0.14,0.1499,0.1713,0.168,0.1854,0.1827,0.2053,0.1385,0.1617,0.1409,0.1174,0.1124,0.134,0.1479,NA,NA,0.0657
3344,0.1336,0.1422,0.1651,0.159,0.1761,0.1727,0.1932,0.1304,0.1524,0.1324,0.1097,0.1041,0.1244,0.1382,NA,NA,0.0639
3303,0.1216,0.1286,0.1503,0.1432,0.158,0.1541,0.173,0.1169,0.1367,0.1174,0.0979,0.0924,0.1108,0.1225,NA,NA,0.0607
3262,0.1105,0.1156,0.1355,0.1286,0.1415,0.1369,0.1551,0.1047,0.1228,0.1041,0.0873,0.0821,0.0986,0.1085,NA,NA,0.0573
3221,0.0954,0.0985,0.116,0.1096,0.1204,0.115,0.1314,0.0889,0.105,0.0874,0.0739,0.0695,0.0828,0.0912,NA,NA,0.0522
3180,0.0758,0.0767,0.0912,0.0856,0.0937,0.0871,0.1007,0.0688,0.0826,0.0659,0.0577,0.0542,0.064,0.0693,NA,NA,0.045
3139,0.0578,0.057,0.0688,0.064,0.07,0.0626,0.0735,0.0508,0.0624,0.0469,0.0436,0.0413,0.0476,0.0502,NA,NA,0.0382
3098,0.044,0.0425,0.0518,0.0482,0.0524,0.0449,0.0535,0.0376,0.0473,0.0333,0.0332,0.0317,0.0358,0.0365,NA,NA,0.0325
3057,0.0342,0.0323,0.0395,0.037,0.04,0.033,0.0399,0.0284,0.0367,0.0241,0.0261,0.0252,0.0276,0.0272,NA,NA,0.0283
3016,0.0278,0.026,0.0316,0.0298,0.0319,0.0258,0.0312,0.0221,0.0293,0.0181,0.0216,0.0211,0.0226,0.0212,NA,NA,0.026
2975,0.0263,0.0251,0.0299,0.0287,0.029,0.0248,0.0295,0.0206,0.0271,0.0159,0.0207,0.0201,0.0219,0.0198,NA,NA,0.0275
2934,0.0263,0.0257,0.0337,0.0313,0.0302,0.0271,0.0291,0.0194,0.0277,0.0147,0.0212,0.0198,0.0222,0.0196,NA,NA,0.0281
2893,0.0225,0.0219,0.0285,0.0255,0.0253,0.0224,0.0248,0.0164,0.0227,0.0123,0.0184,0.0174,0.0191,0.0166,NA,NA,0.0288
2852,0.019,0.0186,0.0252,0.0234,0.0231,0.0201,0.0197,0.0133,0.0208,0.01,0.0164,0.0154,0.0161,0.014,NA,NA,0.0249
2811,0.014,0.0135,0.017,0.0154,0.0159,0.0132,0.0147,0.0101,0.0144,0.0077,0.0125,0.0127,0.0123,0.0101,NA,NA,0.0224
2770,0.0122,0.0119,0.0148,0.0134,0.0141,0.0116,0.0128,0.0087,0.0126,0.0067,0.0113,0.0117,0.0111,0.009,NA,NA,0.0213
2729,0.0111,0.011,0.0138,0.0124,0.013,0.0109,0.0118,0.008,0.0115,0.0062,0.0107,0.0111,0.0102,0.0083,NA,NA,0.0206
2688,0.0104,0.0104,0.0126,0.0115,0.0121,0.0103,0.0108,0.0074,0.0106,0.0058,0.01,0.0107,0.0096,0.0078,NA,NA,0.0203
2647,0.0104,0.0105,0.0125,0.0113,0.012,0.0103,0.0106,0.0077,0.0104,0.006,0.0103,0.011,0.0095,0.0079,NA,NA,0.02
2606,0.0091,0.0093,0.011,0.0099,0.0107,0.0092,0.0093,0.0066,0.0092,0.0051,0.0091,0.01,0.0084,0.0068,NA,NA,0.0187
2565,0.0081,0.0084,0.01,0.0091,0.0098,0.0086,0.0086,0.0058,0.0082,0.0047,0.0083,0.0092,0.0075,0.0061,NA,NA,0.0179
2524,0.0075,0.0079,0.0095,0.0087,0.0096,0.0083,0.0081,0.0055,0.0078,0.0043,0.0077,0.0087,0.007,0.0059,NA,NA,0.0174
2483,0.0075,0.0077,0.0092,0.0085,0.0095,0.0079,0.008,0.0052,0.0075,0.0044,0.0075,0.0083,0.0067,0.0057,NA,NA,0.0171
2442,0.0076,0.0078,0.0093,0.0084,0.0096,0.008,0.0078,0.0052,0.0077,0.0045,0.0076,0.0084,0.0066,0.0058,NA,NA,0.0166
2401,0.0071,0.0076,0.0089,0.0084,0.0095,0.008,0.0078,0.0051,0.0076,0.0044,0.0072,0.008,0.0064,0.0056,NA,NA,0.0162
2360,0.0073,0.0076,0.0101,0.0092,0.0099,0.0079,0.0086,0.0052,0.0084,0.005,0.0083,0.009,0.0073,0.0055,NA,NA,0.0159
2319,0.0102,0.0103,0.0124,0.0116,0.0122,0.0107,0.011,0.0078,0.0106,0.0074,0.0104,0.011,0.0094,0.0082,NA,NA,0.0179
2278,0.0106,0.0112,0.0125,0.0118,0.0131,0.0118,0.0117,0.0086,0.0109,0.0076,0.0105,0.0111,0.0095,0.0088,NA,NA,0.0176
2237,0.0099,0.0104,0.0118,0.0113,0.0126,0.0113,0.0116,0.0079,0.0102,0.0077,0.0097,0.0101,0.0086,0.0086,NA,NA,0.0169
2196,0.0099,0.0106,0.0118,0.0111,0.0131,0.0121,0.0114,0.0083,0.0105,0.0081,0.0098,0.0102,0.0084,0.0094,NA,NA,0.017
2155,0.0033,0.0042,0.006,0.0049,0.0083,0.0066,0.0067,0.0035,0.0061,0.0039,0.0041,0.0042,0.0037,0.0035,NA,NA,0.01
2114,0.0113,0.0124,0.0138,0.0132,0.0151,0.014,0.014,0.0096,0.0123,0.0097,0.0105,0.0108,0.0099,0.0104,NA,NA,0.016
2073,0.0113,0.0118,0.013,0.0127,0.0144,0.0132,0.0134,0.0095,0.0119,0.0092,0.0102,0.0107,0.0094,0.01,NA,NA,0.0149
2032,0.0085,0.0094,0.0095,0.0084,0.0111,0.0099,0.0081,0.0067,0.0091,0.008,0.008,0.0088,0.0069,0.0079,NA,NA,0.0135
1991,0.008,0.0099,0.0105,0.0099,0.0117,0.0104,0.0095,0.0067,0.0089,0.0079,0.008,0.0093,0.0073,0.0089,NA,NA,0.0147
1950,0.0066,0.0077,0.0087,0.0083,0.01,0.0089,0.0078,0.0045,0.0074,0.0056,0.0065,0.0077,0.0058,0.006,NA,NA,0.0135
1909,0.0073,0.0086,0.0099,0.0091,0.0107,0.0097,0.0082,0.0048,0.0085,0.006,0.0078,0.0084,0.0071,0.0069,NA,NA,0.0141
1868,0.0077,0.0086,0.0098,0.0091,0.0108,0.0096,0.0072,0.0045,0.0082,0.0057,0.0074,0.0081,0.0067,0.0066,NA,NA,0.0135
1827,0.0085,0.0094,0.0107,0.0102,0.0114,0.0102,0.0072,0.0045,0.0092,0.0066,0.0084,0.0088,0.0078,0.0073,NA,NA,0.0138
1786,0.0107,0.0115,0.0129,0.0124,0.0137,0.0125,0.0073,0.0044,0.0112,0.008,0.0098,0.0102,0.0094,0.0092,NA,NA,0.0142
1745,0.0151,0.016,0.0188,0.0184,0.0196,0.0181,0.0102,0.0058,0.0162,0.0114,0.0133,0.013,0.0131,0.013,NA,NA,0.0146
1704,0.027,0.0272,0.0304,0.0305,0.0329,0.0307,0.0225,0.0155,0.0297,0.0227,0.0224,0.0218,0.0243,0.0243,NA,NA,0.0176
1663,0.0688,0.0697,0.075,0.0777,0.0813,0.0805,0.0764,0.0546,0.0758,0.0619,0.055,0.0519,0.064,0.0658,NA,NA,0.0353
1622,0.0805,0.0818,0.0884,0.0917,0.0975,0.0992,0.1004,0.063,0.0889,0.0747,0.0632,0.0586,0.0724,0.0779,NA,NA,0.0447
1581,0.0414,0.0393,0.0444,0.047,0.0497,0.0483,0.0356,0.023,0.0476,0.0356,0.033,0.0299,0.0359,0.0379,NA,NA,0.0273
1540,0.0329,0.0313,0.0337,0.0362,0.0378,0.0366,0.0168,0.0121,0.0378,0.0266,0.0267,0.0246,0.03,0.0298,NA,NA,0.0207
1499,0.0262,0.0257,0.0285,0.0286,0.0306,0.0301,0.0073,0.0045,0.0294,0.022,0.0223,0.021,0.0266,0.0259,NA,NA,0.0186
1458,0.0322,0.0326,0.0389,0.0373,0.0376,0.0398,0.0127,0.0076,0.0351,0.0257,0.0275,0.0258,0.0371,0.0333,NA,NA,0.0258
1417,0.0363,0.0363,0.0445,0.0419,0.0416,0.0453,0.017,0.0098,0.0397,0.0294,0.0313,0.0291,0.0422,0.0386,NA,NA,0.0304
1376,0.042,0.044,0.0508,0.0489,0.0461,0.0516,0.0206,0.0129,0.0424,0.0329,0.0353,0.0324,0.0444,0.0416,NA,NA,0.0379
1335,0.036,0.0377,0.0452,0.0419,0.0412,0.0441,0.0087,0.0047,0.0366,0.0291,0.0307,0.0281,0.0367,0.0352,NA,NA,0.0312
1294,0.0445,0.0476,0.0524,0.0534,0.0482,0.0553,0.0181,0.0096,0.0435,0.0345,0.0379,0.035,0.0469,0.0429,NA,NA,0.0368
1253,0.0981,0.1086,0.1094,0.124,0.0973,0.1291,0.133,0.0579,0.092,0.0713,0.0836,0.0767,0.1159,0.0951,NA,NA,0.1018
1212,0.104,0.1098,0.1144,0.121,0.1008,0.1244,0.1329,0.0538,0.0983,0.07,0.0819,0.0745,0.109,0.0938,NA,NA,0.1152
1171,0.0969,0.0921,0.1117,0.1109,0.1039,0.0881,0.0586,0.0308,0.0964,0.0544,0.0669,0.0613,0.0841,0.0735,NA,NA,0.0872
1130,0.1284,0.1174,0.1532,0.1456,0.1393,0.1034,0.0844,0.0493,0.131,0.0694,0.0858,0.0798,0.1083,0.0931,NA,NA,0.1099
1089,0.1481,0.1396,0.174,0.1649,0.1567,0.1325,0.0931,0.0694,0.149,0.0842,0.1051,0.0961,0.1338,0.1128,NA,NA,0.129
1048,0.19,0.1876,0.2262,0.2095,0.1866,0.1897,0.1519,0.0976,0.1763,0.1055,0.1363,0.1212,0.1827,0.1483,NA,NA,0.2089
1007,0.1458,0.1353,0.1964,0.1632,0.1498,0.1586,0.173,0.0532,0.1464,0.0765,0.105,0.0868,0.124,0.112,NA,NA,0.1415
966,0.0952,0.0892,0.1063,0.1015,0.0946,0.1047,0.0335,0.0198,0.0934,0.0583,0.0696,0.0597,0.0826,0.0773,NA,NA,0.101
925,0.1536,0.1554,0.1691,0.1685,0.1478,0.1483,0.0402,0.06,0.1379,0.0882,0.1075,0.0983,0.1426,0.1213,NA,NA,0.1716
884,0.1206,0.1142,0.129,0.1218,0.1169,0.105,0.0184,0.0202,0.1117,0.0674,0.077,0.0703,0.0941,0.0891,NA,NA,0.1072
843,0.1333,0.1395,0.1421,0.1465,0.129,0.1439,0.0364,0.0408,0.1219,0.0877,0.0978,0.0897,0.1224,0.1139,NA,NA,0.1553
802,0.1082,0.1093,0.124,0.1233,0.1206,0.1229,0.0129,0.0105,0.1105,0.0818,0.0822,0.0753,0.099,0.0972,NA,NA,0.0785
761,0.1137,0.1152,0.1413,0.1341,0.1364,0.1341,0.01,0.0037,0.124,0.0926,0.0901,0.0815,0.1059,0.105,NA,NA,0.0801
720,0.156,0.1609,0.1823,0.1797,0.1768,0.1812,0.0252,0.0234,0.162,0.1214,0.1214,0.1115,0.1489,0.1427,NA,NA,0.1184
679,0.1574,0.1635,0.1908,0.1839,0.1861,0.1909,0.013,0.0104,0.1684,0.1302,0.126,0.1145,0.1511,0.1496,NA,NA,0.1263
638,0.1688,0.1762,0.2089,0.2003,0.2057,0.2116,0.0076,0.0057,0.1852,0.1446,0.1386,0.1261,0.1667,0.1634,NA,NA,0.1343
597,0.2156,0.2219,0.2628,0.2504,0.2547,0.2625,0.0375,0.0254,0.2347,0.1733,0.1737,0.1577,0.2113,0.2026,NA,NA,0.1788
556,0.2615,0.2606,0.3257,0.3011,0.3141,0.2936,0.066,0.0347,0.2851,0.1973,0.2001,0.1803,0.2411,0.2321,NA,NA,0.1877
515,0.2595,0.2671,0.3195,0.3062,0.3163,0.308,0.0322,0.0241,0.2783,0.2084,0.2009,0.1824,0.2445,0.2388,NA,NA,0.2001
474,0.2669,0.2729,0.3289,0.3101,0.3232,0.318,0.0198,0.0102,0.2848,0.219,0.2029,0.187,0.2505,0.2438,NA,NA,0.2066
450,0.2713,0.2768,0.3334,0.3156,0.3303,0.3412,0.0044,0.0051,0.2915,0.2243,0.208,0.1894,0.256,0.2539,NA,NA,0.2127